File: rohang23_jb/Data/Data_battery_status_0.csv
timestamp,voltage_v,voltage_filtered_v,current_a,current_filtered_a,current_average_a,discharged_mah,remaining,scale,time_remaining_s,temperature,voltage_cell_v[0],voltage_cell_v[1],voltage_cell_v[2],voltage_cell_v[3],voltage_cell_v[4],voltage_cell_v[5],voltage_cell_v[6],voltage_cell_v[7],voltage_cell_v[8],voltage_cell_v[9],voltage_cell_v[10],voltage_cell_v[11],voltage_cell_v[12],voltage_cell_v[13],max_cell_voltage_delta,custom_faults,average_power,available_energy,full_charge_capacity_wh,remaining_capacity_wh,design_capacity,nominal_voltage,capacity,cycle_count,average_time_to_empty,serial_number,manufacture_date,state_of_health,max_error,interface_error,faults,average_time_to_full,over_discharge_count,connected,cell_count,source,priority,id,is_powering_off,is_required,warning,mode
217452562,24.9243,24.92907,1.794625,1.78267,14.9707,108.967,1.0,1.0,nan,nan,0.0,0.0,0.0,0.0,0.0,0.0,0.0,0.0,0.0,0.0,0.0,0.0,0.0,0.0,0.0,0,0.0,0.0,0.0,0.0,0.0,0.0,0,0,0,0,0,0,0,0,0,0,0,1,6,0,0,1,0,0,0,0
218652561,24.9607,24.8952,1.84041,1.75188,14.6569,109.546,1.0,1.0,nan,nan,0.0,0.0,0.0,0.0,0.0,0.0,0.0,0.0,0.0,0.0,0.0,0.0,0.0,0.0,0.0,0,0.0,0.0,0.0,0.0,0.0,0.0,0,0,0,0,0,0,0,0,0,0,0,1,6,0,0,1,0,0,0,0
220052560,24.7666,24.8221,3.523325,3.17999,14.32876,110.626,1.0,1.0,nan,nan,0.0,0.0,0.0,0.0,0.0,0.0,0.0,0.0,0.0,0.0,0.0,0.0,0.0,0.0,0.0,0,0.0,0.0,0.0,0.0,0.0,0.0,0,0,0,0,0,0,0,0,0,0,0,1,6,0,0,1,0,0,0,0
221452562,24.3701,24.7284,7.59053,5.837792,14.0746,112.626,1.0,1.0,nan,nan,0.0,0.0,0.0,0.0,0.0,0.0,0.0,0.0,0.0,0.0,0.0,0.0,0.0,0.0,0.0,0,0.0,0.0,0.0,0.0,0.0,0.0,0,0,0,0,0,0,0,0,0,0,0,1,6,0,0,1,0,0,0,0
222852560,23.8606,24.3375,18.8179,14.19,14.0259,117.436,1.0,1.0,nan,nan,0.0,0.0,0.0,0.0,0.0,0.0,0.0,0.0,0.0,0.0,0.0,0.0,0.0,0.0,0.0,0,0.0,0.0,0.0,0.0,0.0,0.0,0,0,0,0,0,0,0,0,0,0,0,1,6,0,0,1,0,0,0,0
224252570,23.6857,23.8535,23.5371,21.76521,14.2432,125.962,1.0,1.0,nan,nan,0.0,0.0,0.0,0.0,0.0,0.0,0.0,0.0,0.0,0.0,0.0,0.0,0.0,0.0,0.0,0,0.0,0.0,0.0,0.0,0.0,0.0,0,0,0,0,0,0,0,0,0,0,0,1,6,0,0,1,0,0,0,0
225652560,23.64191,23.6297,23.2422,23.2166,14.4895,134.97,1.0,1.0,nan,nan,0.0,0.0,0.0,0.0,0.0,0.0,0.0,0.0,0.0,0.0,0.0,0.0,0.0,0.0,0.0,0,0.0,0.0,0.0,0.0,0.0,0.0,0,0,0,0,0,0,0,0,0,0,0,1,6,0,0,1,0,0,0,0
227052804,23.6957,23.5562,23.07375,22.88017,14.7266,143.9472,1.0,1.0,nan,nan,0.0,0.0,0.0,0.0,0.0,0.0,0.0,0.0,0.0,0.0,0.0,0.0,0.0,0.0,0.0,0,0.0,0.0,0.0,0.0,0.0,0.0,0,0,0,0,0,0,0,0,0,0,0,1,6,0,0,1,0,0,0,0
228452560,23.4642,23.5481,22.2424,22.0538,14.9336,152.587,1.0,1.0,nan,nan,0.0,0.0,0.0,0.0,0.0,0.0,0.0,0.0,0.0,0.0,0.0,0.0,0.0,0.0,0.0,0,0.0,0.0,0.0,0.0,0.0,0.0,0,0,0,0,0,0,0,0,0,0,0,1,6,0,0,1,0,0,0,0
229852560,23.60272,23.5312,21.1747,21.469,15.1148,160.945,1.0,1.0,nan,nan,0.0,0.0,0.0,0.0,0.0,0.0,0.0,0.0,0.0,0.0,0.0,0.0,0.0,0.0,0.0,0,0.0,0.0,0.0,0.0,0.0,0.0,0,0,0,0,0,0,0,0,0,0,0,1,6,0,0,1,0,0,0,0
231252561,23.55168,23.5131,22.0299,21.4197,15.2887,169.274,1.0,1.0,nan,nan,0.0,0.0,0.0,0.0,0.0,0.0,0.0,0.0,0.0,0.0,0.0,0.0,0.0,0.0,0.0,0,0.0,0.0,0.0,0.0,0.0,0.0,0,0,0,0,0,0,0,0,0,0,0,1,6,0,0,1,0,0,0,0
232652562,23.3375,23.4939,20.8909,21.1854,15.4516,177.5124,1.0,1.0,nan,nan,0.0,0.0,0.0,0.0,0.0,0.0,0.0,0.0,0.0,0.0,0.0,0.0,0.0,0.0,0.0,0,0.0,0.0,0.0,0.0,0.0,0.0,0,0,0,0,0,0,0,0,0,0,0,1,6,0,0,1,0,0,0,0
234052578,23.4305,23.4506,21.5007,21.5843,15.6188,185.8786,1.0,1.0,nan,nan,0.0,0.0,0.0,0.0,0.0,0.0,0.0,0.0,0.0,0.0,0.0,0.0,0.0,0.0,0.0,0,0.0,0.0,0.0,0.0,0.0,0.0,0,0,0,0,0,0,0,0,0,0,0,1,6,0,0,1,0,0,0,0
235452561,22.61931,23.19389,33.50455,27.73788,15.8749,195.5813,1.0,1.0,nan,nan,0.0,0.0,0.0,0.0,0.0,0.0,0.0,0.0,0.0,0.0,0.0,0.0,0.0,0.0,0.0,0,0.0,0.0,0.0,0.0,0.0,0.0,0,0,0,0,0,0,0,0,0,0,0,1,6,0,0,1,0,0,0,0
236852666,23.2117,23.0625,26.7051,27.0433,16.2193,206.5971,1.0,1.0,nan,nan,0.0,0.0,0.0,0.0,0.0,0.0,0.0,0.0,0.0,0.0,0.0,0.0,0.0,0.0,0.0,0,0.0,0.0,0.0,0.0,0.0,0.0,0,0,0,0,0,0,0,0,0,0,0,1,6,0,0,1,0,0,0,0
238252581,22.8298,22.9414,32.30142,29.4612,16.55982,217.712,1.0,1.0,nan,nan,0.0,0.0,0.0,0.0,0.0,0.0,0.0,0.0,0.0,0.0,0.0,0.0,0.0,0.0,0.0,0,0.0,0.0,0.0,0.0,0.0,0.0,0,0,0,0,0,0,0,0,0,0,0,1,6,0,0,1,0,0,0,0
239652561,22.9155,22.766,31.1422,31.4048,16.9734,229.975,0.9718552,1.00384,nan,nan,0.0,0.0,0.0,0.0,0.0,0.0,0.0,0.0,0.0,0.0,0.0,0.0,0.0,0.0,0.0,0,0.0,0.0,0.0,0.0,0.0,0.0,0,0,0,0,0,0,0,0,0,0,0,1,6,0,0,1,0,0,0,0
241052560,22.581,22.7115,30.873,30.8244,17.3499,241.879,0.954941,1.00616,nan,nan,0.0,0.0,0.0,0.0,0.0,0.0,0.0,0.0,0.0,0.0,0.0,0.0,0.0,0.0,0.0,0,0.0,0.0,0.0,0.0,0.0,0.0,0,0,0,0,0,0,0,0,0,0,0,1,6,0,0,1,0,0,0,0
242452686,22.8089,22.6921,30.9811,30.5766,17.7136,253.749,0.948337,1.00707,nan,nan,0.0,0.0,0.0,0.0,0.0,0.0,0.0,0.0,0.0,0.0,0.0,0.0,0.0,0.0,0.0,0,0.0,0.0,0.0,0.0,0.0,0.0,0,0,0,0,0,0,0,0,0,0,0,1,6,0,0,1,0,0,0,0
243852575,22.68311,22.6742,30.6258,30.47019,18.06368,265.568,0.9440313,1.00766,nan,nan,0.0,0.0,0.0,0.0,0.0,0.0,0.0,0.0,0.0,0.0,0.0,0.0,0.0,0.0,0.0,0,0.0,0.0,0.0,0.0,0.0,0.0,0,0,0,0,0,0,0,0,0,0,0,1,6,0,0,1,0,0,0,0
245252658,22.81982,22.6352,30.8383,30.6154,18.4139,277.527,0.9321824,1.0093,nan,nan,0.0,0.0,0.0,0.0,0.0,0.0,0.0,0.0,0.0,0.0,0.0,0.0,0.0,0.0,0.0,0,0.0,0.0,0.0,0.0,0.0,0.0,0,0,0,0,0,0,0,0,0,0,0,1,6,0,0,1,0,0,0,0
246652560,22.8982,22.591,27.227,30.4807,18.7576,289.5209,0.9032207,1.013318,nan,nan,0.0,0.0,0.0,0.0,0.0,0.0,0.0,0.0,0.0,0.0,0.0,0.0,0.0,0.0,0.0,0,0.0,0.0,0.0,0.0,0.0,0.0,0,0,0,0,0,0,0,0,0,0,0,1,6,0,0,1,0,0,0,0
248052560,23.0085,22.74081,23.5499,25.7921,18.9847,300.0115,0.926261,1.01012,nan,nan,0.0,0.0,0.0,0.0,0.0,0.0,0.0,0.0,0.0,0.0,0.0,0.0,0.0,0.0,0.0,0,0.0,0.0,0.0,0.0,0.0,0.0,0,0,0,0,0,0,0,0,0,0,0,1,6,0,0,1,0,0,0,0
249452560,23.04038,22.9089,22.5848,23.0253,19.0949,308.946,0.9681273,1.00435,nan,nan,0.0,0.0,0.0,0.0,0.0,0.0,0.0,0.0,0.0,0.0,0.0,0.0,0.0,0.0,0.0,0,0.0,0.0,0.0,0.0,0.0,0.0,0,0,0,0,0,0,0,0,0,0,0,1,6,0,0,1,0,0,0,0
250852561,23.01395,22.9951,22.4951,22.2277,19.1804,317.575,0.989734,1.0014,nan,nan,0.0,0.0,0.0,0.0,0.0,0.0,0.0,0.0,0.0,0.0,0.0,0.0,0.0,0.0,0.0,0,0.0,0.0,0.0,0.0,0.0,0.0,0,0,0,0,0,0,0,0,0,0,0,1,6,0,0,1,0,0,0,0
252252560,23.04038,22.9607,20.922,23.1074,19.2905,326.58,0.973963,1.00355,nan,nan,0.0,0.0,0.0,0.0,0.0,0.0,0.0,0.0,0.0,0.0,0.0,0.0,0.0,0.0,0.0,0,0.0,0.0,0.0,0.0,0.0,0.0,0,0,0,0,0,0,0,0,0,0,0,1,6,0,0,1,0,0,0,0
253652561,22.9802,22.92749,26.3407,24.0177,19.406,335.722,0.990953,1.00123,nan,nan,0.0,0.0,0.0,0.0,0.0,0.0,0.0,0.0,0.0,0.0,0.0,0.0,0.0,0.0,0.0,0,0.0,0.0,0.0,0.0,0.0,0.0,0,0,0,0,0,0,0,0,0,0,0,1,6,0,0,1,0,0,0,0
255052560,22.6339,22.8007,26.2217,25.5588,19.5965,345.954,0.9514571,1.006636,nan,nan,0.0,0.0,0.0,0.0,0.0,0.0,0.0,0.0,0.0,0.0,0.0,0.0,0.0,0.0,0.0,0,0.0,0.0,0.0,0.0,0.0,0.0,0,0,0,0,0,0,0,0,0,0,0,1,6,0,0,1,0,0,0,0
256452559,22.6749,22.9299,24.0883,22.0439,19.66522,354.54,0.9727145,1.00372,nan,nan,0.0,0.0,0.0,0.0,0.0,0.0,0.0,0.0,0.0,0.0,0.0,0.0,0.0,0.0,0.0,0,0.0,0.0,0.0,0.0,0.0,0.0,0,0,0,0,0,0,0,0,0,0,0,1,6,0,0,1,0,0,0,0
257852923,22.6612,22.9183,23.8923,22.6493,19.762,363.556,0.9719115,1.00383,nan,nan,0.0,0.0,0.0,0.0,0.0,0.0,0.0,0.0,0.0,0.0,0.0,0.0,0.0,0.0,0.0,0,0.0,0.0,0.0,0.0,0.0,0.0,0,0,0,0,0,0,0,0,0,0,0,1,6,0,0,1,0,0,0,0
259252939,22.9028,22.8971,25.85542,23.1688,19.86736,372.7331,0.976048,1.00326,nan,nan,0.0,0.0,0.0,0.0,0.0,0.0,0.0,0.0,0.0,0.0,0.0,0.0,0.0,0.0,0.0,0,0.0,0.0,0.0,0.0,0.0,0.0,0,0,0,0,0,0,0,0,0,0,0,1,6,0,0,1,0,0,0,0
260652925,22.8608,22.8678,22.3998,23.0867,19.9651,381.8283,0.954869,1.00617,nan,nan,0.0,0.0,0.0,0.0,0.0,0.0,0.0,0.0,0.0,0.0,0.0,0.0,0.0,0.0,0.0,0,0.0,0.0,0.0,0.0,0.0,0.0,0,0,0,0,0,0,0,0,0,0,0,1,6,0,0,1,0,0,0,0
262052888,23.0705,22.8622,20.3873,22.5531,20.0527,390.822,0.9379373,1.0085,nan,nan,0.0,0.0,0.0,0.0,0.0,0.0,0.0,0.0,0.0,0.0,0.0,0.0,0.0,0.0,0.0,0,0.0,0.0,0.0,0.0,0.0,0.0,0,0,0,0,0,0,0,0,0,0,0,1,6,0,0,1,0,0,0,0
263453266,22.5929,22.8692,22.409,22.0718,20.1248,399.647,0.9505053,1.006767,nan,nan,0.0,0.0,0.0,0.0,0.0,0.0,0.0,0.0,0.0,0.0,0.0,0.0,0.0,0.0,0.0,0,0.0,0.0,0.0,0.0,0.0,0.0,0,0,0,0,0,0,0,0,0,0,0,1,6,0,0,1,0,0,0,0
264852586,20.5732,21.4881,50.7586,49.98963,20.8786,418.135,0.5360828,1.06724,nan,nan,0.0,0.0,0.0,0.0,0.0,0.0,0.0,0.0,0.0,0.0,0.0,0.0,0.0,0.0,0.0,0,0.0,0.0,0.0,0.0,0.0,0.0,0,0,0,0,0,0,0,0,0,0,0,1,6,0,0,1,0,0,0,0
266252560,21.79722,21.5959,35.6801,37.264,21.4013,433.593,0.40917,1.08724,nan,nan,0.0,0.0,0.0,0.0,0.0,0.0,0.0,0.0,0.0,0.0,0.0,0.0,0.0,0.0,0.0,0,0.0,0.0,0.0,0.0,0.0,0.0,0,0,0,0,0,0,0,0,0,0,0,1,6,0,0,1,0,0,0,0
267652560,21.923,21.8407,31.0488,32.30554,21.7164,446.3457,0.389608,1.090385,nan,nan,0.0,0.0,0.0,0.0,0.0,0.0,0.0,0.0,0.0,0.0,0.0,0.0,0.0,0.0,0.0,0,0.0,0.0,0.0,0.0,0.0,0.0,0,0,0,0,0,0,0,0,0,0,0,1,6,0,0,1,0,0,0,0
269052561,23.5699,22.35686,7.938469,19.6175,21.8153,456.142,0.4111691,1.08691,nan,nan,0.0,0.0,0.0,0.0,0.0,0.0,0.0,0.0,0.0,0.0,0.0,0.0,0.0,0.0,0.0,0,0.0,0.0,0.0,0.0,0.0,0.0,0,0,0,0,0,0,0,0,0,0,0,1,6,0,0,1,0,0,0,0
270452560,23.6446,22.6367,11.3776,17.5039,21.7951,464.364,0.4959765,1.073477,nan,nan,0.0,0.0,0.0,0.0,0.0,0.0,0.0,0.0,0.0,0.0,0.0,0.0,0.0,0.0,0.0,0,0.0,0.0,0.0,0.0,0.0,0.0,0,0,0,0,0,0,0,0,0,0,0,1,6,0,0,1,0,0,0,0
271852560,23.0449,22.86981,18.9205,17.2228,21.61068,470.254,0.566609,1.06254,nan,nan,0.0,0.0,0.0,0.0,0.0,0.0,0.0,0.0,0.0,0.0,0.0,0.0,0.0,0.0,0.0,0,0.0,0.0,0.0,0.0,0.0,0.0,0,0,0,0,0,0,0,0,0,0,0,1,6,0,0,1,0,0,0,0
273252562,23.0887,22.7656,20.61072,20.0774,21.5652,478.0217,0.535044,1.0674,nan,nan,0.0,0.0,0.0,0.0,0.0,0.0,0.0,0.0,0.0,0.0,0.0,0.0,0.0,0.0,0.0,0,0.0,0.0,0.0,0.0,0.0,0.0,0,0,0,0,0,0,0,0,0,0,0,1,6,0,0,1,0,0,0,0
274652561,22.5163,22.6865,21.7607,21.4303,21.55617,486.284,0.511065,1.07112,nan,nan,0.0,0.0,0.0,0.0,0.0,0.0,0.0,0.0,0.0,0.0,0.0,0.0,0.0,0.0,0.0,0,0.0,0.0,0.0,0.0,0.0,0.0,0,0,0,0,0,0,0,0,0,0,0,1,6,0,0,1,0,0,0,0
276052560,21.9841,22.5056,28.8458,25.0573,21.5932,495.2,0.456237,1.07973,nan,nan,0.0,0.0,0.0,0.0,0.0,0.0,0.0,0.0,0.0,0.0,0.0,0.0,0.0,0.0,0.0,0,0.0,0.0,0.0,0.0,0.0,0.0,0,0,0,0,0,0,0,0,0,0,0,1,6,0,0,1,0,0,0,0
277452605,22.1736,22.2299,29.4282,28.75,21.79593,506.455,0.3726893,1.09312,nan,nan,0.0,0.0,0.0,0.0,0.0,0.0,0.0,0.0,0.0,0.0,0.0,0.0,0.0,0.0,0.0,0,0.0,0.0,0.0,0.0,0.0,0.0,0,0,0,0,0,0,0,0,0,0,0,1,6,0,0,1,0,0,0,0
278852560,22.2274,22.1696,27.6079,28.2787,21.9851,517.5921,0.354433,1.09609,nan,nan,0.0,0.0,0.0,0.0,0.0,0.0,0.0,0.0,0.0,0.0,0.0,0.0,0.0,0.0,0.0,0,0.0,0.0,0.0,0.0,0.0,0.0,0,0,0,0,0,0,0,0,0,0,0,1,6,0,0,1,0,0,0,0
280252561,22.72868,22.44364,19.794,21.142,22.0104,526.488,0.4374662,1.08271,nan,nan,0.0,0.0,0.0,0.0,0.0,0.0,0.0,0.0,0.0,0.0,0.0,0.0,0.0,0.0,0.0,0,0.0,0.0,0.0,0.0,0.0,0.0,0,0,0,0,0,0,0,0,0,0,0,1,6,0,0,1,0,0,0,0
281652565,22.7606,22.48109,21.7681,22.3333,22.0195,535.181,0.448815,1.08091,nan,nan,0.0,0.0,0.0,0.0,0.0,0.0,0.0,0.0,0.0,0.0,0.0,0.0,0.0,0.0,0.0,0,0.0,0.0,0.0,0.0,0.0,0.0,0,0,0,0,0,0,0,0,0,0,0,1,6,0,0,1,0,0,0,0
283052561,22.9848,22.4704,20.1383,22.2735,22.0379,544.001,0.445569,1.08142,nan,nan,0.0,0.0,0.0,0.0,0.0,0.0,0.0,0.0,0.0,0.0,0.0,0.0,0.0,0.0,0.0,0,0.0,0.0,0.0,0.0,0.0,0.0,0,0,0,0,0,0,0,0,0,0,0,1,6,0,0,1,0,0,0,0
284452561,22.6375,22.5963,19.21897,19.6282,21.9785,551.733,0.483725,1.0754,nan,nan,0.0,0.0,0.0,0.0,0.0,0.0,0.0,0.0,0.0,0.0,0.0,0.0,0.0,0.0,0.0,0,0.0,0.0,0.0,0.0,0.0,0.0,0,0,0,0,0,0,0,0,0,0,0,1,6,0,0,1,0,0,0,0
285852575,22.6749,22.6673,19.4259,19.2066,21.8969,559.1327,0.50524,1.07203,nan,nan,0.0,0.0,0.0,0.0,0.0,0.0,0.0,0.0,0.0,0.0,0.0,0.0,0.0,0.0,0.0,0,0.0,0.0,0.0,0.0,0.0,0.0,0,0,0,0,0,0,0,0,0,0,0,1,6,0,0,1,0,0,0,0
287252561,22.1846,22.6353,19.0816,19.48811,21.8313,566.7229,0.495554,1.07354,nan,nan,0.0,0.0,0.0,0.0,0.0,0.0,0.0,0.0,0.0,0.0,0.0,0.0,0.0,0.0,0.0,0,0.0,0.0,0.0,0.0,0.0,0.0,0,0,0,0,0,0,0,0,0,0,0,1,6,0,0,1,0,0,0,0
288652648,22.0324,22.632,19.58888,20.0702,21.7807,574.5027,0.494541,1.0737,nan,nan,0.0,0.0,0.0,0.0,0.0,0.0,0.0,0.0,0.0,0.0,0.0,0.0,0.0,0.0,0.0,0,0.0,0.0,0.0,0.0,0.0,0.0,0,0,0,0,0,0,0,0,0,0,0,1,6,0,0,1,0,0,0,0
290052580,23.0577,22.606,20.4184,20.0721,21.7321,582.29,0.486675,1.07493,nan,nan,0.0,0.0,0.0,0.0,0.0,0.0,0.0,0.0,0.0,0.0,0.0,0.0,0.0,0.0,0.0,0,0.0,0.0,0.0,0.0,0.0,0.0,0,0,0,0,0,0,0,0,0,0,0,1,6,0,0,1,0,0,0,0
291452571,22.4152,22.609,19.7336,19.92075,21.6834,590.055,0.487571,1.07479,nan,nan,0.0,0.0,0.0,0.0,0.0,0.0,0.0,0.0,0.0,0.0,0.0,0.0,0.0,0.0,0.0,0,0.0,0.0,0.0,0.0,0.0,0.0,0,0,0,0,0,0,0,0,0,0,0,1,6,0,0,1,0,0,0,0
292852581,22.9848,22.6187,20.032,19.5595,21.62551,597.673,0.4905129,1.07433,nan,nan,0.0,0.0,0.0,0.0,0.0,0.0,0.0,0.0,0.0,0.0,0.0,0.0,0.0,0.0,0.0,0,0.0,0.0,0.0,0.0,0.0,0.0,0,0,0,0,0,0,0,0,0,0,0,1,6,0,0,1,0,0,0,0
294252561,22.8153,22.6349,18.644,19.3755,21.5659,605.2413,0.495411,1.07357,nan,nan,0.0,0.0,0.0,0.0,0.0,0.0,0.0,0.0,0.0,0.0,0.0,0.0,0.0,0.0,0.0,0,0.0,0.0,0.0,0.0,0.0,0.0,0,0,0,0,0,0,0,0,0,0,0,1,6,0,0,1,0,0,0,0
295652560,23.1197,22.6685,18.8344,18.85582,21.49156,612.5818,0.5056053,1.07197,nan,nan,0.0,0.0,0.0,0.0,0.0,0.0,0.0,0.0,0.0,0.0,0.0,0.0,0.0,0.0,0.0,0,0.0,0.0,0.0,0.0,0.0,0.0,0,0,0,0,0,0,0,0,0,0,0,1,6,0,0,1,0,0,0,0
297052561,22.4133,22.64722,18.6824,18.8851,21.4186,619.9116,0.4991575,1.07298,nan,nan,0.0,0.0,0.0,0.0,0.0,0.0,0.0,0.0,0.0,0.0,0.0,0.0,0.0,0.0,0.0,0,0.0,0.0,0.0,0.0,0.0,0.0,0,0,0,0,0,0,0,0,0,0,0,1,6,0,0,1,0,0,0,0
298452560,22.3896,22.6683,18.2356,18.6175,21.3425,627.1686,0.505538,1.07198,nan,nan,0.0,0.0,0.0,0.0,0.0,0.0,0.0,0.0,0.0,0.0,0.0,0.0,0.0,0.0,0.0,0,0.0,0.0,0.0,0.0,0.0,0.0,0,0,0,0,0,0,0,0,0,0,0,1,6,0,0,1,0,0,0,0
299852561,22.82711,22.67915,17.906,18.161,21.256,634.2506,0.508833,1.07147,nan,nan,0.0,0.0,0.0,0.0,0.0,0.0,0.0,0.0,0.0,0.0,0.0,0.0,0.0,0.0,0.0,0,0.0,0.0,0.0,0.0,0.0,0.0,0,0,0,0,0,0,0,0,0,0,0,1,6,0,0,1,0,0,0,0
301252562,22.74144,22.6811,18.882,18.044,21.1646,641.2322,0.5094214,1.071377,nan,nan,0.0,0.0,0.0,0.0,0.0,0.0,0.0,0.0,0.0,0.0,0.0,0.0,0.0,0.0,0.0,0,0.0,0.0,0.0,0.0,0.0,0.0,0,0,0,0,0,0,0,0,0,0,0,1,6,0,0,1,0,0,0,0
302652560,22.6612,22.40378,21.03923,23.3615,21.2199,650.244,0.425387,1.08464,nan,nan,0.0,0.0,0.0,0.0,0.0,0.0,0.0,0.0,0.0,0.0,0.0,0.0,0.0,0.0,0.0,0,0.0,0.0,0.0,0.0,0.0,0.0,0,0,0,0,0,0,0,0,0,0,0,1,6,0,0,1,0,0,0,0
304052583,22.6102,22.6621,14.2581,15.96094,21.1001,656.7972,0.503655,1.07228,nan,nan,0.0,0.0,0.0,0.0,0.0,0.0,0.0,0.0,0.0,0.0,0.0,0.0,0.0,0.0,0.0,0,0.0,0.0,0.0,0.0,0.0,0.0,0,0,0,0,0,0,0,0,0,0,0,1,6,0,0,1,0,0,0,0
305452563,23.6729,23.02822,3.91521,9.520594,20.8402,661.3227,0.6146117,1.05523,nan,nan,0.0,0.0,0.0,0.0,0.0,0.0,0.0,0.0,0.0,0.0,0.0,0.0,0.0,0.0,0.0,0,0.0,0.0,0.0,0.0,0.0,0.0,0,0,0,0,0,0,0,0,0,0,0,1,6,0,0,1,0,0,0,0
306852560,22.1217,22.6703,23.6781,21.2106,20.76096,668.345,0.5061422,1.07189,nan,nan,0.0,0.0,0.0,0.0,0.0,0.0,0.0,0.0,0.0,0.0,0.0,0.0,0.0,0.0,0.0,0,0.0,0.0,0.0,0.0,0.0,0.0,0,0,0,0,0,0,0,0,0,0,0,1,6,0,0,1,0,0,0,0
308252561,23.2737,22.90371,6.552212,11.6972,20.61084,674.276,0.576881,1.06096,nan,nan,0.0,0.0,0.0,0.0,0.0,0.0,0.0,0.0,0.0,0.0,0.0,0.0,0.0,0.0,0.0,0,0.0,0.0,0.0,0.0,0.0,0.0,0,0,0,0,0,0,0,0,0,0,0,1,6,0,0,1,0,0,0,0
309653223,23.5736,23.4507,1.6701,2.970922,20.1365,675.603,0.7426334,1.03622,nan,nan,0.0,0.0,0.0,0.0,0.0,0.0,0.0,0.0,0.0,0.0,0.0,0.0,0.0,0.0,0.0,0,0.0,0.0,0.0,0.0,0.0,0.0,0,0,0,0,0,0,0,0,0,0,0,1,6,0,0,1,0,0,0,0
311052603,23.7303,23.662,1.68292,1.92132,19.6321,676.328,0.806655,1.02696,nan,nan,0.0,0.0,0.0,0.0,0.0,0.0,0.0,0.0,0.0,0.0,0.0,0.0,0.0,0.0,0.0,0,0.0,0.0,0.0,0.0,0.0,0.0,0,0,0,0,0,0,0,0,0,0,0,1,6,0,0,1,0,0,0,0
312452560,23.806,23.7439,1.93563,1.85373,19.141,677.0465,0.831471,1.02342,nan,nan,0.0,0.0,0.0,0.0,0.0,0.0,0.0,0.0,0.0,0.0,0.0,0.0,0.0,0.0,0.0,0,0.0,0.0,0.0,0.0,0.0,0.0,0,0,0,0,0,0,0,0,0,0,0,1,6,0,0,1,0,0,0,0
313852862,23.7704,23.7801,1.86971,1.855458,18.6638,677.7686,0.8424478,1.02186,nan,nan,0.0,0.0,0.0,0.0,0.0,0.0,0.0,0.0,0.0,0.0,0.0,0.0,0.0,0.0,0.0,0,0.0,0.0,0.0,0.0,0.0,0.0,0,0,0,0,0,0,0,0,0,0,0,1,6,0,0,1,0,0,0,0
315253065,23.9445,23.8052,1.86604,1.82945,18.1986,678.475,0.850071,1.02078,nan,nan,0.0,0.0,0.0,0.0,0.0,0.0,0.0,0.0,0.0,0.0,0.0,0.0,0.0,0.0,0.0,0,0.0,0.0,0.0,0.0,0.0,0.0,0,0,0,0,0,0,0,0,0,0,0,1,6,0,0,1,0,0,0,0
316653082,23.909,23.8297,1.911825,1.85716,17.7472,679.1955,0.857495,1.01973,nan,nan,0.0,0.0,0.0,0.0,0.0,0.0,0.0,0.0,0.0,0.0,0.0,0.0,0.0,0.0,0.0,0,0.0,0.0,0.0,0.0,0.0,0.0,0,0,0,0,0,0,0,0,0,0,0,1,6,0,0,1,0,0,0,0
318052961,23.878,23.84417,2.116925,1.84777,17.30823,679.915,0.8618694,1.01912,nan,nan,0.0,0.0,0.0,0.0,0.0,0.0,0.0,0.0,0.0,0.0,0.0,0.0,0.0,0.0,0.0,0,0.0,0.0,0.0,0.0,0.0,0.0,0,0,0,0,0,0,0,0,0,0,0,1,6,0,0,1,0,0,0,0
319452559,23.7221,23.8571,1.5822,1.86031,16.8831,680.656,0.8657976,1.01856,nan,nan,0.0,0.0,0.0,0.0,0.0,0.0,0.0,0.0,0.0,0.0,0.0,0.0,0.0,0.0,0.0,0,0.0,0.0,0.0,0.0,0.0,0.0,0,0,0,0,0,0,0,0,0,0,0,1,6,0,0,1,0,0,0,0
320852560,23.5107,23.57,9.608568,9.373286,16.60843,683.3619,0.778786,1.03097,nan,nan,0.0,0.0,0.0,0.0,0.0,0.0,0.0,0.0,0.0,0.0,0.0,0.0,0.0,0.0,0.0,0,0.0,0.0,0.0,0.0,0.0,0.0,0,0,0,0,0,0,0,0,0,0,0,1,6,0,0,1,0,0,0,0
322252560,23.0495,23.3584,13.4908,11.5919,16.4471,687.5544,0.7146688,1.04031,nan,nan,0.0,0.0,0.0,0.0,0.0,0.0,0.0,0.0,0.0,0.0,0.0,0.0,0.0,0.0,0.0,0,0.0,0.0,0.0,0.0,0.0,0.0,0,0,0,0,0,0,0,0,0,0,0,1,6,0,0,1,0,0,0,0
323652562,23.25,23.10521,12.5917,14.609,16.40814,693.4,0.6379419,1.051711,nan,nan,0.0,0.0,0.0,0.0,0.0,0.0,0.0,0.0,0.0,0.0,0.0,0.0,0.0,0.0,0.0,0,0.0,0.0,0.0,0.0,0.0,0.0,0,0,0,0,0,0,0,0,0,0,0,1,6,0,0,1,0,0,0,0
325052574,23.4095,23.193,10.3228,11.1761,16.2753,697.906,0.664547,1.04773,nan,nan,0.0,0.0,0.0,0.0,0.0,0.0,0.0,0.0,0.0,0.0,0.0,0.0,0.0,0.0,0.0,0,0.0,0.0,0.0,0.0,0.0,0.0,0,0,0,0,0,0,0,0,0,0,0,1,6,0,0,1,0,0,0,0
326452562,23.4232,23.2829,10.8685,10.4067,16.1014,701.787,0.6917868,1.04368,nan,nan,0.0,0.0,0.0,0.0,0.0,0.0,0.0,0.0,0.0,0.0,0.0,0.0,0.0,0.0,0.0,0,0.0,0.0,0.0,0.0,0.0,0.0,0,0,0,0,0,0,0,0,0,0,0,1,6,0,0,1,0,0,0,0
327852596,23.2746,23.1779,14.2654,12.6774,15.99447,706.5488,0.659977,1.04841,nan,nan,0.0,0.0,0.0,0.0,0.0,0.0,0.0,0.0,0.0,0.0,0.0,0.0,0.0,0.0,0.0,0,0.0,0.0,0.0,0.0,0.0,0.0,0,0,0,0,0,0,0,0,0,0,0,1,6,0,0,1,0,0,0,0
329252594,22.8918,23.075,12.96525,13.4973,15.9342,711.9178,0.628799,1.05309,nan,nan,0.0,0.0,0.0,0.0,0.0,0.0,0.0,0.0,0.0,0.0,0.0,0.0,0.0,0.0,0.0,0,0.0,0.0,0.0,0.0,0.0,0.0,0,0,0,0,0,0,0,0,0,0,0,1,6,0,0,1,0,0,0,0
330652575,23.4651,23.15342,10.09385,11.1836,15.8073,716.3217,0.652551,1.04952,nan,nan,0.0,0.0,0.0,0.0,0.0,0.0,0.0,0.0,0.0,0.0,0.0,0.0,0.0,0.0,0.0,0,0.0,0.0,0.0,0.0,0.0,0.0,0,0,0,0,0,0,0,0,0,0,0,1,6,0,0,1,0,0,0,0
332052561,23.48059,23.2879,7.96777,8.747747,15.6206,719.8347,0.693304,1.04346,nan,nan,0.0,0.0,0.0,0.0,0.0,0.0,0.0,0.0,0.0,0.0,0.0,0.0,0.0,0.0,0.0,0,0.0,0.0,0.0,0.0,0.0,0.0,0,0,0,0,0,0,0,0,0,0,0,1,6,0,0,1,0,0,0,0
333452560,23.6073,23.3125,10.8996,9.33273,15.437,723.3305,0.700764,1.04236,nan,nan,0.0,0.0,0.0,0.0,0.0,0.0,0.0,0.0,0.0,0.0,0.0,0.0,0.0,0.0,0.0,0,0.0,0.0,0.0,0.0,0.0,0.0,0,0,0,0,0,0,0,0,0,0,0,1,6,0,0,1,0,0,0,0
334852581,23.4168,23.1604,14.6134,12.9166,15.35,728.115,0.6546579,1.049206,nan,nan,0.0,0.0,0.0,0.0,0.0,0.0,0.0,0.0,0.0,0.0,0.0,0.0,0.0,0.0,0.0,0,0.0,0.0,0.0,0.0,0.0,0.0,0,0,0,0,0,0,0,0,0,0,0,1,6,0,0,1,0,0,0,0
336252560,22.7779,22.8001,17.8089,18.62581,15.4359,735.2994,0.545488,1.06578,nan,nan,0.0,0.0,0.0,0.0,0.0,0.0,0.0,0.0,0.0,0.0,0.0,0.0,0.0,0.0,0.0,0,0.0,0.0,0.0,0.0,0.0,0.0,0,0,0,0,0,0,0,0,0,0,0,1,6,0,0,1,0,0,0,0
337652561,21.75712,22.3856,28.4027,25.8392,15.6661,744.563,0.419892,1.08552,nan,nan,0.0,0.0,0.0,0.0,0.0,0.0,0.0,0.0,0.0,0.0,0.0,0.0,0.0,0.0,0.0,0,0.0,0.0,0.0,0.0,0.0,0.0,0,0,0,0,0,0,0,0,0,0,0,1,6,0,0,1,0,0,0,0
339052561,22.2639,22.0341,28.3844,28.9131,16.039,755.9082,0.313365,1.10284,nan,nan,0.0,0.0,0.0,0.0,0.0,0.0,0.0,0.0,0.0,0.0,0.0,0.0,0.0,0.0,0.0,0,0.0,0.0,0.0,0.0,0.0,0.0,0,0,0,0,0,0,0,0,0,0,0,1,6,0,0,1,0,0,0,0
340452560,22.1882,21.9712,27.7068,28.5539,16.3875,767.054,0.294314,1.10599,nan,nan,0.0,0.0,0.0,0.0,0.0,0.0,0.0,0.0,0.0,0.0,0.0,0.0,0.0,0.0,0.0,0,0.0,0.0,0.0,0.0,0.0,0.0,0,0,0,0,0,0,0,0,0,0,0,1,6,0,0,1,0,0,0,0
341852575,21.68785,21.92204,28.106,28.4372,16.7172,778.071,0.279406,1.10847,nan,nan,0.0,0.0,0.0,0.0,0.0,0.0,0.0,0.0,0.0,0.0,0.0,0.0,0.0,0.0,0.0,0,0.0,0.0,0.0,0.0,0.0,0.0,0,0,0,0,0,0,0,0,0,0,0,1,6,0,0,1,0,0,0,0
343252562,21.9558,21.87509,27.6922,28.2763,17.0367,789.072,0.265179,1.11085,nan,nan,0.0,0.0,0.0,0.0,0.0,0.0,0.0,0.0,0.0,0.0,0.0,0.0,0.0,0.0,0.0,0,0.0,0.0,0.0,0.0,0.0,0.0,0,0,0,0,0,0,0,0,0,0,0,1,6,0,0,1,0,0,0,0
344652576,21.94487,21.8428,28.5693,28.201,17.3454,800.05,0.2554074,1.11249,nan,nan,0.0,0.0,0.0,0.0,0.0,0.0,0.0,0.0,0.0,0.0,0.0,0.0,0.0,0.0,0.0,0,0.0,0.0,0.0,0.0,0.0,0.0,0,0,0,0,0,0,0,0,0,0,0,1,6,0,0,1,0,0,0,0
346052646,21.8346,21.80993,28.3899,28.1861,17.6445,811.0084,0.245434,1.11417,nan,nan,0.0,0.0,0.0,0.0,0.0,0.0,0.0,0.0,0.0,0.0,0.0,0.0,0.0,0.0,0.0,0,0.0,0.0,0.0,0.0,0.0,0.0,0,0,0,0,0,0,0,0,0,0,0,1,6,0,0,1,0,0,0,0
347452599,21.51104,21.7959,27.5475,28.0764,17.9327,821.927,0.241184,1.11489,nan,nan,0.0,0.0,0.0,0.0,0.0,0.0,0.0,0.0,0.0,0.0,0.0,0.0,0.0,0.0,0.0,0,0.0,0.0,0.0,0.0,0.0,0.0,0,0,0,0,0,0,0,0,0,0,0,1,6,0,0,1,0,0,0,0
348852561,21.8473,21.78358,27.4834,28.09555,18.2125,832.8428,0.237449,1.11552,nan,nan,0.0,0.0,0.0,0.0,0.0,0.0,0.0,0.0,0.0,0.0,0.0,0.0,0.0,0.0,0.0,0,0.0,0.0,0.0,0.0,0.0,0.0,0,0,0,0,0,0,0,0,0,0,0,1,6,0,0,1,0,0,0,0
350252655,21.9476,21.8171,24.4655,26.1585,18.4567,843.362,0.2475949,1.11381,nan,nan,0.0,0.0,0.0,0.0,0.0,0.0,0.0,0.0,0.0,0.0,0.0,0.0,0.0,0.0,0.0,0,0.0,0.0,0.0,0.0,0.0,0.0,0,0,0,0,0,0,0,0,0,0,0,1,6,0,0,1,0,0,0,0
351652581,22.2238,22.0307,21.5849,22.2043,18.5695,852.1235,0.312337,1.10301,nan,nan,0.0,0.0,0.0,0.0,0.0,0.0,0.0,0.0,0.0,0.0,0.0,0.0,0.0,0.0,0.0,0,0.0,0.0,0.0,0.0,0.0,0.0,0,0,0,0,0,0,0,0,0,0,0,1,6,0,0,1,0,0,0,0
353052560,22.0634,22.14268,20.825,20.64803,18.629,860.182,0.346266,1.09743,nan,nan,0.0,0.0,0.0,0.0,0.0,0.0,0.0,0.0,0.0,0.0,0.0,0.0,0.0,0.0,0.0,0,0.0,0.0,0.0,0.0,0.0,0.0,0,0,0,0,0,0,0,0,0,0,0,1,6,0,0,1,0,0,0,0
354452562,21.8136,22.1737,19.7061,20.2349,18.6742,868.0613,0.355672,1.09589,nan,nan,0.0,0.0,0.0,0.0,0.0,0.0,0.0,0.0,0.0,0.0,0.0,0.0,0.0,0.0,0.0,0,0.0,0.0,0.0,0.0,0.0,0.0,0,0,0,0,0,0,0,0,0,0,0,1,6,0,0,1,0,0,0,0
355852571,22.0725,22.2328,19.7134,19.5382,18.69958,875.682,0.373574,1.09298,nan,nan,0.0,0.0,0.0,0.0,0.0,0.0,0.0,0.0,0.0,0.0,0.0,0.0,0.0,0.0,0.0,0,0.0,0.0,0.0,0.0,0.0,0.0,0,0,0,0,0,0,0,0,0,0,0,1,6,0,0,1,0,0,0,0
357252560,22.1782,22.2376,19.6823,19.5628,18.7233,883.289,0.3750301,1.09274,nan,nan,0.0,0.0,0.0,0.0,0.0,0.0,0.0,0.0,0.0,0.0,0.0,0.0,0.0,0.0,0.0,0,0.0,0.0,0.0,0.0,0.0,0.0,0,0,0,0,0,0,0,0,0,0,0,1,6,0,0,1,0,0,0,0
358652560,22.077,22.23483,19.00288,19.3288,18.7465,890.8961,0.374191,1.09288,nan,nan,0.0,0.0,0.0,0.0,0.0,0.0,0.0,0.0,0.0,0.0,0.0,0.0,0.0,0.0,0.0,0,0.0,0.0,0.0,0.0,0.0,0.0,0,0,0,0,0,0,0,0,0,0,0,1,6,0,0,1,0,0,0,0
360052560,22.71592,22.29205,18.47365,18.3297,18.7443,898.1568,0.3915301,1.09007,nan,nan,0.0,0.0,0.0,0.0,0.0,0.0,0.0,0.0,0.0,0.0,0.0,0.0,0.0,0.0,0.0,0,0.0,0.0,0.0,0.0,0.0,0.0,0,0,0,0,0,0,0,0,0,0,0,1,6,0,0,1,0,0,0,0
361452560,22.7588,22.3493,17.0764,17.1761,18.7008,904.8311,0.408886,1.08728,nan,nan,0.0,0.0,0.0,0.0,0.0,0.0,0.0,0.0,0.0,0.0,0.0,0.0,0.0,0.0,0.0,0,0.0,0.0,0.0,0.0,0.0,0.0,0,0,0,0,0,0,0,0,0,0,0,1,6,0,0,1,0,0,0,0
362852561,21.8938,22.3897,15.355,16.5225,18.64597,911.327,0.4211064,1.08532,nan,nan,0.0,0.0,0.0,0.0,0.0,0.0,0.0,0.0,0.0,0.0,0.0,0.0,0.0,0.0,0.0,0,0.0,0.0,0.0,0.0,0.0,0.0,0,0,0,0,0,0,0,0,0,0,0,1,6,0,0,1,0,0,0,0
364252560,21.8592,22.4109,15.3862,16.2759,18.57607,917.5932,0.427553,1.08429,nan,nan,0.0,0.0,0.0,0.0,0.0,0.0,0.0,0.0,0.0,0.0,0.0,0.0,0.0,0.0,0.0,0,0.0,0.0,0.0,0.0,0.0,0.0,0,0,0,0,0,0,0,0,0,0,0,1,6,0,0,1,0,0,0,0
365652560,22.5819,22.416,16.7633,16.2603,18.5119,923.9173,0.429103,1.08405,nan,nan,0.0,0.0,0.0,0.0,0.0,0.0,0.0,0.0,0.0,0.0,0.0,0.0,0.0,0.0,0.0,0,0.0,0.0,0.0,0.0,0.0,0.0,0,0,0,0,0,0,0,0,0,0,0,1,6,0,0,1,0,0,0,0
367053106,22.14629,22.3679,17.699,17.7311,18.48259,930.708,0.414501,1.08638,nan,nan,0.0,0.0,0.0,0.0,0.0,0.0,0.0,0.0,0.0,0.0,0.0,0.0,0.0,0.0,0.0,0,0.0,0.0,0.0,0.0,0.0,0.0,0,0,0,0,0,0,0,0,0,0,0,1,6,0,0,1,0,0,0,0
368452561,22.1855,22.2694,18.9077,18.5682,18.4805,937.8665,0.38466,1.09118,nan,nan,0.0,0.0,0.0,0.0,0.0,0.0,0.0,0.0,0.0,0.0,0.0,0.0,0.0,0.0,0.0,0,0.0,0.0,0.0,0.0,0.0,0.0,0,0,0,0,0,0,0,0,0,0,0,1,6,0,0,1,0,0,0,0
369852560,22.0397,22.2827,17.35842,18.3656,18.483,945.0855,0.388698,1.090532,nan,nan,0.0,0.0,0.0,0.0,0.0,0.0,0.0,0.0,0.0,0.0,0.0,0.0,0.0,0.0,0.0,0,0.0,0.0,0.0,0.0,0.0,0.0,0,0,0,0,0,0,0,0,0,0,0,1,6,0,0,1,0,0,0,0
371252561,22.52,22.3019,17.3255,17.5715,18.45516,951.8816,0.394506,1.08959,nan,nan,0.0,0.0,0.0,0.0,0.0,0.0,0.0,0.0,0.0,0.0,0.0,0.0,0.0,0.0,0.0,0,0.0,0.0,0.0,0.0,0.0,0.0,0,0,0,0,0,0,0,0,0,0,0,1,6,0,0,1,0,0,0,0
372652561,22.4744,22.32022,16.6754,17.4494,18.4287,958.685,0.400066,1.0887,nan,nan,0.0,0.0,0.0,0.0,0.0,0.0,0.0,0.0,0.0,0.0,0.0,0.0,0.0,0.0,0.0,0,0.0,0.0,0.0,0.0,0.0,0.0,0,0,0,0,0,0,0,0,0,0,0,1,6,0,0,1,0,0,0,0
374052561,21.6195,22.3233,16.8127,17.6704,18.40655,965.5399,0.4009853,1.08855,nan,nan,0.0,0.0,0.0,0.0,0.0,0.0,0.0,0.0,0.0,0.0,0.0,0.0,0.0,0.0,0.0,0,0.0,0.0,0.0,0.0,0.0,0.0,0,0,0,0,0,0,0,0,0,0,0,1,6,0,0,1,0,0,0,0
375452560,22.1882,22.2705,18.0616,18.0647,18.3943,972.5298,0.385012,1.09113,nan,nan,0.0,0.0,0.0,0.0,0.0,0.0,0.0,0.0,0.0,0.0,0.0,0.0,0.0,0.0,0.0,0,0.0,0.0,0.0,0.0,0.0,0.0,0,0,0,0,0,0,0,0,0,0,0,1,6,0,0,1,0,0,0,0
376852560,22.15814,22.2398,18.5762,18.3816,18.3944,979.6861,0.375693,1.09264,nan,nan,0.0,0.0,0.0,0.0,0.0,0.0,0.0,0.0,0.0,0.0,0.0,0.0,0.0,0.0,0.0,0,0.0,0.0,0.0,0.0,0.0,0.0,0,0,0,0,0,0,0,0,0,0,0,1,6,0,0,1,0,0,0,0
378252573,22.2101,22.2273,17.9701,18.477,18.3963,986.8649,0.371903,1.09325,nan,nan,0.0,0.0,0.0,0.0,0.0,0.0,0.0,0.0,0.0,0.0,0.0,0.0,0.0,0.0,0.0,0,0.0,0.0,0.0,0.0,0.0,0.0,0,0,0,0,0,0,0,0,0,0,0,1,6,0,0,1,0,0,0,0
379652710,22.51541,22.197,18.8912,18.3155,18.39494,994.004,0.362719,1.094744,nan,nan,0.0,0.0,0.0,0.0,0.0,0.0,0.0,0.0,0.0,0.0,0.0,0.0,0.0,0.0,0.0,0,0.0,0.0,0.0,0.0,0.0,0.0,0,0,0,0,0,0,0,0,0,0,0,1,6,0,0,1,0,0,0,0
381052855,22.0014,22.2185,18.2722,18.4964,18.397,1001.19,0.3692351,1.09368,nan,nan,0.0,0.0,0.0,0.0,0.0,0.0,0.0,0.0,0.0,0.0,0.0,0.0,0.0,0.0,0.0,0,0.0,0.0,0.0,0.0,0.0,0.0,0,0,0,0,0,0,0,0,0,0,0,1,6,0,0,1,0,0,0,0
382453184,22.015,22.2009,18.8948,18.8537,18.4078,1008.5,0.363901,1.09455,nan,nan,0.0,0.0,0.0,0.0,0.0,0.0,0.0,0.0,0.0,0.0,0.0,0.0,0.0,0.0,0.0,0,0.0,0.0,0.0,0.0,0.0,0.0,0,0,0,0,0,0,0,0,0,0,0,1,6,0,0,1,0,0,0,0
383852988,23.1798,22.5131,3.35485,9.512691,18.2832,1013.87,0.579408,1.06058,nan,nan,0.0,0.0,0.0,0.0,0.0,0.0,0.0,0.0,0.0,0.0,0.0,0.0,0.0,0.0,0.0,0,0.0,0.0,0.0,0.0,0.0,0.0,0,0,0,0,0,0,0,0,0,0,0,1,6,0,0,1,0,0,0,0
385253115,23.1625,22.82328,5.671381,7.62188,17.9594,1016.42,0.7881294,1.02962,nan,nan,0.0,0.0,0.0,0.0,0.0,0.0,0.0,0.0,0.0,0.0,0.0,0.0,0.0,0.0,0.0,0,0.0,0.0,0.0,0.0,0.0,0.0,0,0,0,0,0,0,0,0,0,0,0,1,6,0,0,1,0,0,0,0
386652992,22.6612,22.8661,12.3115,9.296898,17.6778,1019.453,0.8624268,1.01904,nan,nan,0.0,0.0,0.0,0.0,0.0,0.0,0.0,0.0,0.0,0.0,0.0,0.0,0.0,0.0,0.0,0,0.0,0.0,0.0,0.0,0.0,0.0,0,0,0,0,0,0,0,0,0,0,0,1,6,0,0,1,0,0,0,0
388053185,19.7128,22.6971,55.0053,12.251,17.5267,1024.32,0.7691904,1.03236,nan,nan,0.0,0.0,0.0,0.0,0.0,0.0,0.0,0.0,0.0,0.0,0.0,0.0,0.0,0.0,0.0,0,0.0,0.0,0.0,0.0,0.0,0.0,0,0,0,0,0,0,0,0,0,0,0,1,6,0,0,1,0,0,0,0
389452561,22.5838,22.0825,14.2599,25.6992,17.8526,1035.62,0.8734923,1.01748,nan,nan,0.0,0.0,0.0,0.0,0.0,0.0,0.0,0.0,0.0,0.0,0.0,0.0,0.0,0.0,0.0,0,0.0,0.0,0.0,0.0,0.0,0.0,0,0,0,0,0,0,0,0,0,0,0,1,6,0,0,1,0,0,0,0
390852560,21.7289,22.0164,27.6555,24.41438,18.0177,1044.92,0.853465,1.0203,nan,nan,0.0,0.0,0.0,0.0,0.0,0.0,0.0,0.0,0.0,0.0,0.0,0.0,0.0,0.0,0.0,0,0.0,0.0,0.0,0.0,0.0,0.0,0,0,0,0,0,0,0,0,0,0,0,1,6,0,0,1,0,0,0,0
392252560,21.9394,21.86119,24.62665,27.3685,18.26981,1055.47,0.806421,1.027,nan,nan,0.0,0.0,0.0,0.0,0.0,0.0,0.0,0.0,0.0,0.0,0.0,0.0,0.0,0.0,0.0,0,0.0,0.0,0.0,0.0,0.0,0.0,0,0,0,0,0,0,0,0,0,0,0,1,6,0,0,1,0,0,0,0
393652561,21.2039,21.513,37.1524,33.58136,18.69977,1068.67,0.6831742,1.04496,nan,nan,0.0,0.0,0.0,0.0,0.0,0.0,0.0,0.0,0.0,0.0,0.0,0.0,0.0,0.0,0.0,0,0.0,0.0,0.0,0.0,0.0,0.0,0,0,0,0,0,0,0,0,0,0,0,1,6,0,0,1,0,0,0,0
395052560,20.9979,21.3944,36.9674,33.57966,19.0967,1081.53,0.603014,1.05698,nan,nan,0.0,0.0,0.0,0.0,0.0,0.0,0.0,0.0,0.0,0.0,0.0,0.0,0.0,0.0,0.0,0,0.0,0.0,0.0,0.0,0.0,0.0,0,0,0,0,0,0,0,0,0,0,0,1,6,0,0,1,0,0,0,0
396452561,21.3616,21.4488,31.3895,31.0504,19.4228,1093.53,0.584899,1.05974,nan,nan,0.0,0.0,0.0,0.0,0.0,0.0,0.0,0.0,0.0,0.0,0.0,0.0,0.0,0.0,0.0,0,0.0,0.0,0.0,0.0,0.0,0.0,0,0,0,0,0,0,0,0,0,0,0,1,6,0,0,1,0,0,0,0
397852561,21.6377,21.5668,21.8871,26.8315,19.7135,1105.17,0.566969,1.06248,nan,nan,0.0,0.0,0.0,0.0,0.0,0.0,0.0,0.0,0.0,0.0,0.0,0.0,0.0,0.0,0.0,0,0.0,0.0,0.0,0.0,0.0,0.0,0,0,0,0,0,0,0,0,0,0,0,1,6,0,0,1,0,0,0,0
399252560,21.9567,21.834,19.4351,21.7338,19.7831,1113.81,0.6288772,1.05307,nan,nan,0.0,0.0,0.0,0.0,0.0,0.0,0.0,0.0,0.0,0.0,0.0,0.0,0.0,0.0,0.0,0,0.0,0.0,0.0,0.0,0.0,0.0,0,0,0,0,0,0,0,0,0,0,0,1,6,0,0,1,0,0,0,0
400652561,22.293,21.9915,18.1678,19.4809,19.79692,1121.7,0.65067,1.0498,nan,nan,0.0,0.0,0.0,0.0,0.0,0.0,0.0,0.0,0.0,0.0,0.0,0.0,0.0,0.0,0.0,0,0.0,0.0,0.0,0.0,0.0,0.0,0,0,0,0,0,0,0,0,0,0,0,1,6,0,0,1,0,0,0,0
402052576,22.06791,21.95366,19.7299,20.98059,19.8454,1130.09,0.6681543,1.04719,nan,nan,0.0,0.0,0.0,0.0,0.0,0.0,0.0,0.0,0.0,0.0,0.0,0.0,0.0,0.0,0.0,0,0.0,0.0,0.0,0.0,0.0,0.0,0,0,0,0,0,0,0,0,0,0,0,1,6,0,0,1,0,0,0,0
403452561,21.9084,21.9878,20.5979,20.4459,19.8441,1137.79,0.6820689,1.045124,nan,nan,0.0,0.0,0.0,0.0,0.0,0.0,0.0,0.0,0.0,0.0,0.0,0.0,0.0,0.0,0.0,0,0.0,0.0,0.0,0.0,0.0,0.0,0,0,0,0,0,0,0,0,0,0,0,1,6,0,0,1,0,0,0,0
404852561,22.0634,21.97277,20.0229,20.5753,19.87327,1145.916,0.6725436,1.046539,nan,nan,0.0,0.0,0.0,0.0,0.0,0.0,0.0,0.0,0.0,0.0,0.0,0.0,0.0,0.0,0.0,0,0.0,0.0,0.0,0.0,0.0,0.0,0,0,0,0,0,0,0,0,0,0,0,1,6,0,0,1,0,0,0,0
406252608,21.8747,21.98132,17.3255,20.5577,19.9049,1154.08,0.662891,1.04798,nan,nan,0.0,0.0,0.0,0.0,0.0,0.0,0.0,0.0,0.0,0.0,0.0,0.0,0.0,0.0,0.0,0,0.0,0.0,0.0,0.0,0.0,0.0,0,0,0,0,0,0,0,0,0,0,0,1,6,0,0,1,0,0,0,0
407652580,21.9804,22.0368,22.9639,19.8855,19.8688,1161.33,0.709231,1.04111,nan,nan,0.0,0.0,0.0,0.0,0.0,0.0,0.0,0.0,0.0,0.0,0.0,0.0,0.0,0.0,0.0,0,0.0,0.0,0.0,0.0,0.0,0.0,0,0,0,0,0,0,0,0,0,0,0,1,6,0,0,1,0,0,0,0
409052933,22.1673,21.8956,18.7996,22.5136,19.9421,1170.07,0.651334,1.0497,nan,nan,0.0,0.0,0.0,0.0,0.0,0.0,0.0,0.0,0.0,0.0,0.0,0.0,0.0,0.0,0.0,0,0.0,0.0,0.0,0.0,0.0,0.0,0,0,0,0,0,0,0,0,0,0,0,1,6,0,0,1,0,0,0,0
410452621,21.5794,21.72082,27.06038,26.04169,20.0857,1179.87,0.646299,1.05046,nan,nan,0.0,0.0,0.0,0.0,0.0,0.0,0.0,0.0,0.0,0.0,0.0,0.0,0.0,0.0,0.0,0,0.0,0.0,0.0,0.0,0.0,0.0,0,0,0,0,0,0,0,0,0,0,0,1,6,0,0,1,0,0,0,0
411852660,22.0725,21.8064,19.5303,22.2898,20.1653,1188.79,0.626329,1.05346,nan,nan,0.0,0.0,0.0,0.0,0.0,0.0,0.0,0.0,0.0,0.0,0.0,0.0,0.0,0.0,0.0,0,0.0,0.0,0.0,0.0,0.0,0.0,0,0,0,0,0,0,0,0,0,0,0,1,6,0,0,1,0,0,0,0
413252575,21.87378,21.78003,22.6416,23.1754,20.2342,1197.6,0.6366368,1.05191,nan,nan,0.0,0.0,0.0,0.0,0.0,0.0,0.0,0.0,0.0,0.0,0.0,0.0,0.0,0.0,0.0,0,0.0,0.0,0.0,0.0,0.0,0.0,0,0,0,0,0,0,0,0,0,0,0,1,6,0,0,1,0,0,0,0
414652560,21.8774,21.7482,22.2772,23.33757,20.3248,1206.75,0.624576,1.05372,nan,nan,0.0,0.0,0.0,0.0,0.0,0.0,0.0,0.0,0.0,0.0,0.0,0.0,0.0,0.0,0.0,0,0.0,0.0,0.0,0.0,0.0,0.0,0,0,0,0,0,0,0,0,0,0,0,1,6,0,0,1,0,0,0,0
416052560,21.9558,21.6471,23.0811,25.1577,20.4599,1216.56,0.6001063,1.05743,nan,nan,0.0,0.0,0.0,0.0,0.0,0.0,0.0,0.0,0.0,0.0,0.0,0.0,0.0,0.0,0.0,0,0.0,0.0,0.0,0.0,0.0,0.0,0,0,0,0,0,0,0,0,0,0,0,1,6,0,0,1,0,0,0,0
417452579,21.7389,21.712,25.18518,22.7372,20.5212,1225.38,0.6238108,1.05384,nan,nan,0.0,0.0,0.0,0.0,0.0,0.0,0.0,0.0,0.0,0.0,0.0,0.0,0.0,0.0,0.0,0,0.0,0.0,0.0,0.0,0.0,0.0,0,0,0,0,0,0,0,0,0,0,0,1,6,0,0,1,0,0,0,0
418852561,21.5092,21.68718,24.00952,23.97946,20.6142,1234.67,0.618701,1.05461,nan,nan,0.0,0.0,0.0,0.0,0.0,0.0,0.0,0.0,0.0,0.0,0.0,0.0,0.0,0.0,0.0,0,0.0,0.0,0.0,0.0,0.0,0.0,0,0,0,0,0,0,0,0,0,0,0,1,6,0,0,1,0,0,0,0
420252575,22.07429,21.6875,19.4698,23.7654,20.7043,1243.95,0.593576,1.05842,nan,nan,0.0,0.0,0.0,0.0,0.0,0.0,0.0,0.0,0.0,0.0,0.0,0.0,0.0,0.0,0.0,0,0.0,0.0,0.0,0.0,0.0,0.0,0,0,0,0,0,0,0,0,0,0,0,1,6,0,0,1,0,0,0,0
421652624,21.9658,21.80804,21.0649,21.1077,20.6792,1251.64,0.6340156,1.052301,nan,nan,0.0,0.0,0.0,0.0,0.0,0.0,0.0,0.0,0.0,0.0,0.0,0.0,0.0,0.0,0.0,0,0.0,0.0,0.0,0.0,0.0,0.0,0,0,0,0,0,0,0,0,0,0,0,1,6,0,0,1,0,0,0,0
423052582,21.6541,21.7875,22.6434,21.6756,20.6942,1259.9,0.635209,1.05212,nan,nan,0.0,0.0,0.0,0.0,0.0,0.0,0.0,0.0,0.0,0.0,0.0,0.0,0.0,0.0,0.0,0,0.0,0.0,0.0,0.0,0.0,0.0,0,0,0,0,0,0,0,0,0,0,0,1,6,0,0,1,0,0,0,0
424452560,22.0096,21.74,22.18193,22.382,20.7417,1268.614,0.6186276,1.05462,nan,nan,0.0,0.0,0.0,0.0,0.0,0.0,0.0,0.0,0.0,0.0,0.0,0.0,0.0,0.0,0.0,0,0.0,0.0,0.0,0.0,0.0,0.0,0,0,0,0,0,0,0,0,0,0,0,1,6,0,0,1,0,0,0,0
425852560,21.7389,21.7627,21.6545,21.5841,20.7673,1277.04,0.6225415,1.05403,nan,nan,0.0,0.0,0.0,0.0,0.0,0.0,0.0,0.0,0.0,0.0,0.0,0.0,0.0,0.0,0.0,0,0.0,0.0,0.0,0.0,0.0,0.0,0,0,0,0,0,0,0,0,0,0,0,1,6,0,0,1,0,0,0,0
427252560,21.7535,21.697,22.8595,22.53088,20.8205,1285.87,0.6109281,1.05578,nan,nan,0.0,0.0,0.0,0.0,0.0,0.0,0.0,0.0,0.0,0.0,0.0,0.0,0.0,0.0,0.0,0,0.0,0.0,0.0,0.0,0.0,0.0,0,0,0,0,0,0,0,0,0,0,0,1,6,0,0,1,0,0,0,0
428652560,21.501,21.6698,22.7679,22.8867,20.8763,1294.76,0.6028462,1.05701,nan,nan,0.0,0.0,0.0,0.0,0.0,0.0,0.0,0.0,0.0,0.0,0.0,0.0,0.0,0.0,0.0,0,0.0,0.0,0.0,0.0,0.0,0.0,0,0,0,0,0,0,0,0,0,0,0,1,6,0,0,1,0,0,0,0
430053110,21.7626,21.6665,22.63425,22.499,20.9248,1303.56,0.5978909,1.05776,nan,nan,0.0,0.0,0.0,0.0,0.0,0.0,0.0,0.0,0.0,0.0,0.0,0.0,0.0,0.0,0.0,0,0.0,0.0,0.0,0.0,0.0,0.0,0,0,0,0,0,0,0,0,0,0,0,1,6,0,0,1,0,0,0,0
431452576,21.7589,21.723,21.9384,21.2526,20.9299,1311.76,0.6110235,1.05577,nan,nan,0.0,0.0,0.0,0.0,0.0,0.0,0.0,0.0,0.0,0.0,0.0,0.0,0.0,0.0,0.0,0,0.0,0.0,0.0,0.0,0.0,0.0,0,0,0,0,0,0,0,0,0,0,0,1,6,0,0,1,0,0,0,0
432852575,21.66689,21.7006,22.3834,21.54288,20.9513,1320.21,0.6051975,1.05665,nan,nan,0.0,0.0,0.0,0.0,0.0,0.0,0.0,0.0,0.0,0.0,0.0,0.0,0.0,0.0,0.0,0,0.0,0.0,0.0,0.0,0.0,0.0,0,0,0,0,0,0,0,0,0,0,0,1,6,0,0,1,0,0,0,0
434252561,21.7298,21.7017,21.5099,21.4405,20.9652,1328.551,0.604459,1.05676,nan,nan,0.0,0.0,0.0,0.0,0.0,0.0,0.0,0.0,0.0,0.0,0.0,0.0,0.0,0.0,0.0,0,0.0,0.0,0.0,0.0,0.0,0.0,0,0,0,0,0,0,0,0,0,0,0,1,6,0,0,1,0,0,0,0
435652560,21.6441,21.6757,21.6417,21.7821,20.9915,1337.08,0.5961886,1.05802,nan,nan,0.0,0.0,0.0,0.0,0.0,0.0,0.0,0.0,0.0,0.0,0.0,0.0,0.0,0.0,0.0,0,0.0,0.0,0.0,0.0,0.0,0.0,0,0,0,0,0,0,0,0,0,0,0,1,6,0,0,1,0,0,0,0
437052559,21.8018,21.6953,20.86343,21.2212,20.9959,1345.3,0.6003619,1.05739,nan,nan,0.0,0.0,0.0,0.0,0.0,0.0,0.0,0.0,0.0,0.0,0.0,0.0,0.0,0.0,0.0,0,0.0,0.0,0.0,0.0,0.0,0.0,0,0,0,0,0,0,0,0,0,0,0,1,6,0,0,1,0,0,0,0
438452576,21.64775,21.6514,22.0922,22.11623,21.0257,1353.89,0.592908,1.05852,nan,nan,0.0,0.0,0.0,0.0,0.0,0.0,0.0,0.0,0.0,0.0,0.0,0.0,0.0,0.0,0.0,0,0.0,0.0,0.0,0.0,0.0,0.0,0,0,0,0,0,0,0,0,0,0,0,1,6,0,0,1,0,0,0,0
439852576,21.481,21.6306,22.7606,22.84647,21.0728,1362.729,0.5955501,1.05812,nan,nan,0.0,0.0,0.0,0.0,0.0,0.0,0.0,0.0,0.0,0.0,0.0,0.0,0.0,0.0,0.0,0,0.0,0.0,0.0,0.0,0.0,0.0,0,0,0,0,0,0,0,0,0,0,0,1,6,0,0,1,0,0,0,0
441252560,21.7799,21.58782,21.5575,22.7261,21.1248,1371.65,0.571221,1.06183,nan,nan,0.0,0.0,0.0,0.0,0.0,0.0,0.0,0.0,0.0,0.0,0.0,0.0,0.0,0.0,0.0,0,0.0,0.0,0.0,0.0,0.0,0.0,0,0,0,0,0,0,0,0,0,0,0,1,6,0,0,1,0,0,0,0
442652560,21.67327,21.6169,22.4127,22.0194,21.1449,1380.16,0.583793,1.05991,nan,nan,0.0,0.0,0.0,0.0,0.0,0.0,0.0,0.0,0.0,0.0,0.0,0.0,0.0,0.0,0.0,0,0.0,0.0,0.0,0.0,0.0,0.0,0,0,0,0,0,0,0,0,0,0,0,1,6,0,0,1,0,0,0,0
444052575,21.7726,21.5929,22.3449,22.1193,21.167,1388.69,0.575574,1.06116,nan,nan,0.0,0.0,0.0,0.0,0.0,0.0,0.0,0.0,0.0,0.0,0.0,0.0,0.0,0.0,0.0,0,0.0,0.0,0.0,0.0,0.0,0.0,0,0,0,0,0,0,0,0,0,0,0,1,6,0,0,1,0,0,0,0
445452824,21.4646,21.6164,21.41647,21.4421,21.1783,1397.08,0.577179,1.06092,nan,nan,0.0,0.0,0.0,0.0,0.0,0.0,0.0,0.0,0.0,0.0,0.0,0.0,0.0,0.0,0.0,0,0.0,0.0,0.0,0.0,0.0,0.0,0,0,0,0,0,0,0,0,0,0,0,1,6,0,0,1,0,0,0,0
446853002,21.4108,21.62829,21.9768,21.3978,21.175,1405.273,0.5835605,1.05994,nan,nan,0.0,0.0,0.0,0.0,0.0,0.0,0.0,0.0,0.0,0.0,0.0,0.0,0.0,0.0,0.0,0,0.0,0.0,0.0,0.0,0.0,0.0,0,0,0,0,0,0,0,0,0,0,0,1,6,0,0,1,0,0,0,0
448252917,21.7106,21.6258,20.6071,20.7941,21.1642,1413.35,0.5753251,1.0612,nan,nan,0.0,0.0,0.0,0.0,0.0,0.0,0.0,0.0,0.0,0.0,0.0,0.0,0.0,0.0,0.0,0,0.0,0.0,0.0,0.0,0.0,0.0,0,0,0,0,0,0,0,0,0,0,0,1,6,0,0,1,0,0,0,0
449652967,21.656,21.6061,21.34505,21.4443,21.1689,1421.651,0.574979,1.06125,nan,nan,0.0,0.0,0.0,0.0,0.0,0.0,0.0,0.0,0.0,0.0,0.0,0.0,0.0,0.0,0.0,0,0.0,0.0,0.0,0.0,0.0,0.0,0,0,0,0,0,0,0,0,0,0,0,1,6,0,0,1,0,0,0,0
451053702,21.409,21.5836,20.67115,21.6287,21.1803,1430.05,0.5648628,1.062804,nan,nan,0.0,0.0,0.0,0.0,0.0,0.0,0.0,0.0,0.0,0.0,0.0,0.0,0.0,0.0,0.0,0,0.0,0.0,0.0,0.0,0.0,0.0,0,0,0,0,0,0,0,0,0,0,0,1,6,0,0,1,0,0,0,0
452453031,21.5293,21.5517,22.4237,21.9496,21.1976,1438.53,0.564621,1.06284,nan,nan,0.0,0.0,0.0,0.0,0.0,0.0,0.0,0.0,0.0,0.0,0.0,0.0,0.0,0.0,0.0,0,0.0,0.0,0.0,0.0,0.0,0.0,0,0,0,0,0,0,0,0,0,0,0,1,6,0,0,1,0,0,0,0
453852560,21.6632,21.5495,21.28645,21.4181,21.207,1446.9,0.55824,1.06382,nan,nan,0.0,0.0,0.0,0.0,0.0,0.0,0.0,0.0,0.0,0.0,0.0,0.0,0.0,0.0,0.0,0,0.0,0.0,0.0,0.0,0.0,0.0,0,0,0,0,0,0,0,0,0,0,0,1,6,0,0,1,0,0,0,0
455252608,21.6951,21.579,21.0887,21.1582,21.2098,1455.19,0.564864,1.0628,nan,nan,0.0,0.0,0.0,0.0,0.0,0.0,0.0,0.0,0.0,0.0,0.0,0.0,0.0,0.0,0.0,0,0.0,0.0,0.0,0.0,0.0,0.0,0,0,0,0,0,0,0,0,0,0,0,1,6,0,0,1,0,0,0,0
456652562,21.5949,21.5575,20.6235,21.3611,21.2173,1463.54,0.5587068,1.06375,nan,nan,0.0,0.0,0.0,0.0,0.0,0.0,0.0,0.0,0.0,0.0,0.0,0.0,0.0,0.0,0.0,0,0.0,0.0,0.0,0.0,0.0,0.0,0,0,0,0,0,0,0,0,0,0,0,1,6,0,0,1,0,0,0,0
458052560,21.5147,21.5391,21.3066,21.226,21.2114,1471.71,0.5565401,1.06408,nan,nan,0.0,0.0,0.0,0.0,0.0,0.0,0.0,0.0,0.0,0.0,0.0,0.0,0.0,0.0,0.0,0,0.0,0.0,0.0,0.0,0.0,0.0,0,0,0,0,0,0,0,0,0,0,0,1,6,0,0,1,0,0,0,0
459452560,21.64046,21.5315,21.7644,21.6684,21.2192,1480.07,0.558189,1.06383,nan,nan,0.0,0.0,0.0,0.0,0.0,0.0,0.0,0.0,0.0,0.0,0.0,0.0,0.0,0.0,0.0,0,0.0,0.0,0.0,0.0,0.0,0.0,0,0,0,0,0,0,0,0,0,0,0,1,6,0,0,1,0,0,0,0
460852561,21.6888,21.54774,22.2772,20.8163,21.2115,1488.22,0.5613857,1.06334,nan,nan,0.0,0.0,0.0,0.0,0.0,0.0,0.0,0.0,0.0,0.0,0.0,0.0,0.0,0.0,0.0,0,0.0,0.0,0.0,0.0,0.0,0.0,0,0,0,0,0,0,0,0,0,0,0,1,6,0,0,1,0,0,0,0
462252580,21.1993,21.491,21.074,21.5746,21.2301,1496.73,0.542832,1.06619,nan,nan,0.0,0.0,0.0,0.0,0.0,0.0,0.0,0.0,0.0,0.0,0.0,0.0,0.0,0.0,0.0,0,0.0,0.0,0.0,0.0,0.0,0.0,0,0,0,0,0,0,0,0,0,0,0,1,6,0,0,1,0,0,0,0
463652561,21.4418,21.4681,20.3415,21.3674,21.2434,1505.17,0.5319982,1.06787,nan,nan,0.0,0.0,0.0,0.0,0.0,0.0,0.0,0.0,0.0,0.0,0.0,0.0,0.0,0.0,0.0,0,0.0,0.0,0.0,0.0,0.0,0.0,0,0,0,0,0,0,0,0,0,0,0,1,6,0,0,1,0,0,0,0
465052561,21.5183,21.4432,21.2901,21.4734,21.2552,1513.6,0.5289207,1.06835,nan,nan,0.0,0.0,0.0,0.0,0.0,0.0,0.0,0.0,0.0,0.0,0.0,0.0,0.0,0.0,0.0,0,0.0,0.0,0.0,0.0,0.0,0.0,0,0,0,0,0,0,0,0,0,0,0,1,6,0,0,1,0,0,0,0
466452857,21.3342,21.47553,21.1876,21.006,21.2543,1521.86,0.5347472,1.06744,nan,nan,0.0,0.0,0.0,0.0,0.0,0.0,0.0,0.0,0.0,0.0,0.0,0.0,0.0,0.0,0.0,0,0.0,0.0,0.0,0.0,0.0,0.0,0,0,0,0,0,0,0,0,0,0,0,1,6,0,0,1,0,0,0,0
467852573,21.7106,21.4897,20.7004,21.0331,21.2562,1530.15,0.5362864,1.06721,nan,nan,0.0,0.0,0.0,0.0,0.0,0.0,0.0,0.0,0.0,0.0,0.0,0.0,0.0,0.0,0.0,0,0.0,0.0,0.0,0.0,0.0,0.0,0,0,0,0,0,0,0,0,0,0,0,1,6,0,0,1,0,0,0,0
469252561,21.49919,21.45588,22.2497,21.8018,21.2641,1538.53,0.5400153,1.06663,nan,nan,0.0,0.0,0.0,0.0,0.0,0.0,0.0,0.0,0.0,0.0,0.0,0.0,0.0,0.0,0.0,0,0.0,0.0,0.0,0.0,0.0,0.0,0,0,0,0,0,0,0,0,0,0,0,1,6,0,0,1,0,0,0,0
470652561,21.439,21.39807,21.4256,22.2571,21.29847,1547.28,0.5193091,1.06984,nan,nan,0.0,0.0,0.0,0.0,0.0,0.0,0.0,0.0,0.0,0.0,0.0,0.0,0.0,0.0,0.0,0,0.0,0.0,0.0,0.0,0.0,0.0,0,0,0,0,0,0,0,0,0,0,0,1,6,0,0,1,0,0,0,0
472052605,21.4883,21.41639,19.4332,21.1241,21.2967,1555.54,0.5081039,1.07158,nan,nan,0.0,0.0,0.0,0.0,0.0,0.0,0.0,0.0,0.0,0.0,0.0,0.0,0.0,0.0,0.0,0,0.0,0.0,0.0,0.0,0.0,0.0,0,0,0,0,0,0,0,0,0,0,0,1,6,0,0,1,0,0,0,0
473452560,22.3514,22.0897,1.87703,4.544226,20.8891,1558.05,0.3956552,1.08941,nan,nan,0.0,0.0,0.0,0.0,0.0,0.0,0.0,0.0,0.0,0.0,0.0,0.0,0.0,0.0,0.0,0,0.0,0.0,0.0,0.0,0.0,0.0,0,0,0,0,0,0,0,0,0,0,0,1,6,0,0,1,0,0,0,0
474852560,22.602,22.4059,2.05466,2.057453,20.3652,1558.79,0.426562,1.08445,nan,nan,0.0,0.0,0.0,0.0,0.0,0.0,0.0,0.0,0.0,0.0,0.0,0.0,0.0,0.0,0.0,0,0.0,0.0,0.0,0.0,0.0,0.0,0,0,0,0,0,0,0,0,0,0,0,1,6,0,0,1,0,0,0,0
476252561,22.6075,22.51593,1.96127,1.90993,19.8551,1559.53,0.459918,1.07915,nan,nan,0.0,0.0,0.0,0.0,0.0,0.0,0.0,0.0,0.0,0.0,0.0,0.0,0.0,0.0,0.0,0,0.0,0.0,0.0,0.0,0.0,0.0,0,0,0,0,0,0,0,0,0,0,0,1,6,0,0,1,0,0,0,0
477652615,22.6339,22.5651,1.97775,1.86046,19.3585,1560.25,0.474819,1.0768,nan,nan,0.0,0.0,0.0,0.0,0.0,0.0,0.0,0.0,0.0,0.0,0.0,0.0,0.0,0.0,0.0,0,0.0,0.0,0.0,0.0,0.0,0.0,0,0,0,0,0,0,0,0,0,0,0,1,6,0,0,1,0,0,0,0
479052579,22.653,22.6028,1.96127,1.883848,18.8761,1560.99,0.486245,1.075,nan,nan,0.0,0.0,0.0,0.0,0.0,0.0,0.0,0.0,0.0,0.0,0.0,0.0,0.0,0.0,0.0,0,0.0,0.0,0.0,0.0,0.0,0.0,0,0,0,0,0,0,0,0,0,0,0,1,6,0,0,1,0,0,0,0
480452560,22.6786,22.62991,1.97775,1.89907,18.4073,1561.72,0.494457,1.07371,nan,nan,0.0,0.0,0.0,0.0,0.0,0.0,0.0,0.0,0.0,0.0,0.0,0.0,0.0,0.0,0.0,0,0.0,0.0,0.0,0.0,0.0,0.0,0,0,0,0,0,0,0,0,0,0,0,1,6,0,0,1,0,0,0,0
481853018,22.7077,22.6477,1.999725,1.91629,17.95162,1562.46,0.4998489,1.07287,nan,nan,0.0,0.0,0.0,0.0,0.0,0.0,0.0,0.0,0.0,0.0,0.0,0.0,0.0,0.0,0.0,0,0.0,0.0,0.0,0.0,0.0,0.0,0,0,0,0,0,0,0,0,0,0,0,1,6,0,0,1,0,0,0,0
483252592,22.5546,22.6693,1.37527,1.91389,17.5087,1563.2,0.506386,1.07185,nan,nan,0.0,0.0,0.0,0.0,0.0,0.0,0.0,0.0,0.0,0.0,0.0,0.0,0.0,0.0,0.0,0,0.0,0.0,0.0,0.0,0.0,0.0,0,0,0,0,0,0,0,0,0,0,0,1,6,0,0,1,0,0,0,0
484652562,22.7578,22.6792,1.95944,1.89207,17.0773,1563.94,0.509406,1.07138,nan,nan,0.0,0.0,0.0,0.0,0.0,0.0,0.0,0.0,0.0,0.0,0.0,0.0,0.0,0.0,0.0,0,0.0,0.0,0.0,0.0,0.0,0.0,0,0,0,0,0,0,0,0,0,0,0,1,6,0,0,1,0,0,0,0
486052560,22.7451,22.6891,2.06565,1.86241,16.6575,1564.67,0.5123983,1.07091,nan,nan,0.0,0.0,0.0,0.0,0.0,0.0,0.0,0.0,0.0,0.0,0.0,0.0,0.0,0.0,0.0,0,0.0,0.0,0.0,0.0,0.0,0.0,0,0,0,0,0,0,0,0,0,0,0,1,6,0,0,1,0,0,0,0
487452576,22.7569,22.706,2.08946,1.98019,16.2522,1565.44,0.5175262,1.07012,nan,nan,0.0,0.0,0.0,0.0,0.0,0.0,0.0,0.0,0.0,0.0,0.0,0.0,0.0,0.0,0.0,0,0.0,0.0,0.0,0.0,0.0,0.0,0,0,0,0,0,0,0,0,0,0,0,1,6,0,0,1,0,0,0,0
488852563,22.746,22.7079,2.1975,2.086814,15.8605,1566.241,0.5181022,1.07003,nan,nan,0.0,0.0,0.0,0.0,0.0,0.0,0.0,0.0,0.0,0.0,0.0,0.0,0.0,0.0,0.0,0,0.0,0.0,0.0,0.0,0.0,0.0,0,0,0,0,0,0,0,0,0,0,0,1,6,0,0,1,0,0,0,0
490252561,22.76149,22.7272,2.17919,2.110016,15.4806,1567.058,0.523932,1.06912,nan,nan,0.0,0.0,0.0,0.0,0.0,0.0,0.0,0.0,0.0,0.0,0.0,0.0,0.0,0.0,0.0,0,0.0,0.0,0.0,0.0,0.0,0.0,0,0,0,0,0,0,0,0,0,0,0,1,6,0,0,1,0,0,0,0
491652713,22.7788,22.7329,2.16454,2.083958,15.1107,1567.869,0.525665,1.068851,nan,nan,0.0,0.0,0.0,0.0,0.0,0.0,0.0,0.0,0.0,0.0,0.0,0.0,0.0,0.0,0.0,0,0.0,0.0,0.0,0.0,0.0,0.0,0,0,0,0,0,0,0,0,0,0,0,1,6,0,0,1,0,0,0,0
493052560,22.5874,22.7412,1.82759,2.09353,14.7515,1568.69,0.52817,1.06846,nan,nan,0.0,0.0,0.0,0.0,0.0,0.0,0.0,0.0,0.0,0.0,0.0,0.0,0.0,0.0,0.0,0,0.0,0.0,0.0,0.0,0.0,0.0,0,0,0,0,0,0,0,0,0,0,0,1,6,0,0,1,0,0,0,0
494452644,22.6111,22.7473,1.91915,2.07723,14.4019,1569.5,0.53003,1.06817,nan,nan,0.0,0.0,0.0,0.0,0.0,0.0,0.0,0.0,0.0,0.0,0.0,0.0,0.0,0.0,0.0,0,0.0,0.0,0.0,0.0,0.0,0.0,0,0,0,0,0,0,0,0,0,0,0,1,6,0,0,1,0,0,0,0
495852736,22.6266,22.7503,1.80378,2.06112,14.0618,1570.31,0.530941,1.06803,nan,nan,0.0,0.0,0.0,0.0,0.0,0.0,0.0,0.0,0.0,0.0,0.0,0.0,0.0,0.0,0.0,0,0.0,0.0,0.0,0.0,0.0,0.0,0,0,0,0,0,0,0,0,0,0,0,1,6,0,0,1,0,0,0,0
497252967,22.8052,22.7597,2.18834,2.08673,13.7314,1571.13,0.533793,1.06759,nan,nan,0.0,0.0,0.0,0.0,0.0,0.0,0.0,0.0,0.0,0.0,0.0,0.0,0.0,0.0,0.0,0,0.0,0.0,0.0,0.0,0.0,0.0,0,0,0,0,0,0,0,0,0,0,0,1,6,0,0,1,0,0,0,0
498652910,22.8444,22.7658,2.00156,2.031952,13.40906,1571.93,0.535636,1.06731,nan,nan,0.0,0.0,0.0,0.0,0.0,0.0,0.0,0.0,0.0,0.0,0.0,0.0,0.0,0.0,0.0,0,0.0,0.0,0.0,0.0,0.0,0.0,0,0,0,0,0,0,0,0,0,0,0,1,6,0,0,1,0,0,0,0
500053017,22.7451,22.773,1.71039,1.88812,13.09066,1572.65,0.537803,1.06697,nan,nan,0.0,0.0,0.0,0.0,0.0,0.0,0.0,0.0,0.0,0.0,0.0,0.0,0.0,0.0,0.0,0,0.0,0.0,0.0,0.0,0.0,0.0,0,0,0,0,0,0,0,0,0,0,0,1,6,0,0,1,0,0,0,0
501452560,22.838,22.7878,1.97409,1.88043,12.7812,1573.387,0.542314,1.06627,nan,nan,0.0,0.0,0.0,0.0,0.0,0.0,0.0,0.0,0.0,0.0,0.0,0.0,0.0,0.0,0.0,0,0.0,0.0,0.0,0.0,0.0,0.0,0,0,0,0,0,0,0,0,0,0,0,1,6,0,0,1,0,0,0,0
502852563,22.8417,22.791,1.94479,1.8739,12.4797,1574.11,0.54326,1.06613,nan,nan,0.0,0.0,0.0,0.0,0.0,0.0,0.0,0.0,0.0,0.0,0.0,0.0,0.0,0.0,0.0,0,0.0,0.0,0.0,0.0,0.0,0.0,0,0,0,0,0,0,0,0,0,0,0,1,6,0,0,1,0,0,0,0
504252560,22.6403,22.79796,1.54741,1.86507,12.187,1574.84,0.5453816,1.0658,nan,nan,0.0,0.0,0.0,0.0,0.0,0.0,0.0,0.0,0.0,0.0,0.0,0.0,0.0,0.0,0.0,0,0.0,0.0,0.0,0.0,0.0,0.0,0,0,0,0,0,0,0,0,0,0,0,1,6,0,0,1,0,0,0,0
505652560,22.8535,22.7854,2.06199,1.84282,11.9014,1575.559,0.5415626,1.06639,nan,nan,0.0,0.0,0.0,0.0,0.0,0.0,0.0,0.0,0.0,0.0,0.0,0.0,0.0,0.0,0.0,0,0.0,0.0,0.0,0.0,0.0,0.0,0,0,0,0,0,0,0,0,0,0,0,1,6,0,0,1,0,0,0,0
507052587,22.8426,22.7949,2.00522,1.86699,11.6244,1576.286,0.544458,1.06594,nan,nan,0.0,0.0,0.0,0.0,0.0,0.0,0.0,0.0,0.0,0.0,0.0,0.0,0.0,0.0,0.0,0,0.0,0.0,0.0,0.0,0.0,0.0,0,0,0,0,0,0,0,0,0,0,0,1,6,0,0,1,0,0,0,0
508452561,22.8453,22.80024,1.99606,1.87799,11.3548,1577.01,0.546073,1.06569,nan,nan,0.0,0.0,0.0,0.0,0.0,0.0,0.0,0.0,0.0,0.0,0.0,0.0,0.0,0.0,0.0,0,0.0,0.0,0.0,0.0,0.0,0.0,0,0,0,0,0,0,0,0,0,0,0,1,6,0,0,1,0,0,0,0
509852561,22.86539,22.7924,1.94662,1.84583,11.0922,1577.73,0.543685,1.06606,nan,nan,0.0,0.0,0.0,0.0,0.0,0.0,0.0,0.0,0.0,0.0,0.0,0.0,0.0,0.0,0.0,0,0.0,0.0,0.0,0.0,0.0,0.0,0,0,0,0,0,0,0,0,0,0,0,1,6,0,0,1,0,0,0,0
510852592,22.8681,22.7747,2.1096,1.83073,11.0773,1578.23,0.5383459,1.06689,nan,nan,0.0,0.0,0.0,0.0,0.0,0.0,0.0,0.0,0.0,0.0,0.0,0.0,0.0,0.0,0.0,0,0.0,0.0,0.0,0.0,0.0,0.0,0,0,0,0,0,0,0,0,0,0,0,1,6,0,0,1,0,0,0,0